time,seconds_elapsed,z,y,x
1782846168722535000,0.063534912109375,0.0018881811993196607,-0.002302835462614894,0.0022535668686032295
1782846168732540000,0.073539794921875,0.003489007242023945,-0.019479425624012947,-0.00304638990201056
1782846168742545000,0.083544921875,0.0022186795249581337,-0.0020695424173027277,-0.0005147890187799931
1782846168752550000,0.0935498046875,0.000437291048001498,0.00797323789447546,0.0008471515611745417
1782846168762555000,0.103554931640625,0.003745736088603735,-0.0057529606856405735,-0.0036514601670205593
1782846168772560000,0.113559814453125,0.004208593629300594,-0.010192183777689934,-0.004867193289101124
1782846168782564900,0.12356494140625,0.0008199872681871057,0.0011044129496440291,0.0002615224220789969
1782846168792569900,0.13356982421875,0.003043194068595767,-0.00013129384024068713,-0.00039787625428289175
1782846168802574800,0.143574951171875,-0.000523843802511692,-0.00818229652941227,-0.004269846249371767
1782846168812579800,0.153579833984375,0.004770254250615835,-0.007272027432918549,-0.0030836742371320724
1782846168822584800,0.163584716796875,0.0016841830220073462,0.0013712616637349129,-0.0013275857781991363
1782846168832589800,0.17358984375,0.0019371833186596632,0.0010602044640108943,0.0008412926108576357
1782846168842594800,0.1835947265625,0.0025928535033017397,-0.008538893423974514,-0.000969923275988549
1782846168852599800,0.193599853515625,0.0021081583108752966,-0.004596349783241749,-0.0013161342358216643
1782846168862604800,0.203604736328125,0.003644003299996257,0.0003432814555708319,-0.0008266451768577099
1782846168872609800,0.21360986328125,0.002116147894412279,-0.005197425372898579,-0.0022801985032856464
1782846168882614800,0.22361474609375,0.0016207997687160969,-0.003556119045242667,-0.0008617989369668067
1782846168892619800,0.233619873046875,0.003169428091496229,-0.002296443795785308,0.001064998097717762
1782846168902624800,0.243624755859375,0.0005398227367550135,-0.0017329188995063305,-0.00010120012302650139
1782846168912629800,0.253629638671875,0.0001627191377338022,-0.005450159311294556,-0.00023622238950338215
1782846168922634800,0.263634765625,0.0018612833227962255,-0.002344913315027952,-0.0036828855518251657
1782846168932639700,0.2736396484375,0.002138784620910883,-0.00036511936923488975,-0.002211222657933831
1782846168942644700,0.283644775390625,0.005596100352704525,-0.0009041432058438659,0.00023968449386302382
1782846168952649700,0.293649658203125,0.0012381036067381501,-0.0018239989876747131,-0.0014319816837087274
1782846168962654700,0.30365478515625,0.0009323726990260184,-0.0029854036401957273,-0.002124403603374958
1782846168972659700,0.31365966796875,0.0009840379934757948,-0.001600826159119606,-0.00105301383882761
1782846168982664700,0.323664794921875,0.0017310547409579158,-0.0029800771735608578,-0.0015901734586805105
1782846168992669700,0.333669677734375,0.001130511867813766,-0.006336458958685398,-0.0014543522847816348
1782846169002675000,0.343675048828125,0.0027241474017500877,-0.0023646207991987467,0.0008940231637097895
1782846169012680000,0.353679931640625,0.0016929714474827051,-0.002495914464816451,0.0002716424351092428
1782846169022685000,0.363684814453125,0.002466087229549885,-0.003177950158715248,-0.0011182613670825958
1782846169032690000,0.37368994140625,0.0029814087320119143,-0.0033803503029048443,-0.0011294466676190495
1782846169042695000,0.38369482421875,0.0021076255943626165,-0.0057404437102377415,-0.0007819040911272168
1782846169052700000,0.393699951171875,0.0034386736806482077,-0.0024921861477196217,-0.000147272803587839
1782846169062705000,0.403704833984375,0.0036434705834835768,-0.0021643510553985834,-0.0025928535033017397
1782846169072710000,0.4137099609375,0.0008293083519674838,-0.0004159857635386288,0.0001536643976578489
1782846169082715000,0.42371484375,0.0020274645648896694,-0.0027835359796881676,-0.0020501012913882732
1782846169092719900,0.433719970703125,0.0037265613209456205,-0.003620034782215953,-0.0008295746520161629
1782846169102724900,0.443724853515625,0.002697782125324011,-0.0054943677969276905,-0.0016953683225437999
1782846169112729900,0.453729736328125,0.002656503114849329,-0.004041613079607487,-0.0023723437916487455
1782846169122734800,0.46373486328125,0.004168379586189985,-0.004415787290781736,-0.00008974852971732616
1782846169132739800,0.47373974609375,0.002573412610217929,-0.004761199466884136,-0.00003382214708835818
1782846169142744800,0.483744873046875,0.0018458369886502624,-0.0041313618421554565,-0.0010801780736073852
1782846169152749800,0.493749755859375,0.004422445315867662,-0.0023092268966138363,-0.00003968110104324296
1782846169162754800,0.5037548828125,0.0025515747256577015,-0.0037033918779343367,-0.0009187905816361308
1782846169172759800,0.513759765625,0.0030282805673778057,-0.0017616810509935021,-0.0009499495499767363
1782846169182764800,0.523764892578125,0.0024559672456234694,-0.0029172266367822886,-0.0033358754590153694
1782846169192769800,0.533769775390625,0.004011253360658884,-0.003750795964151621,-0.002089249901473522
1782846169202774800,0.54377490234375,0.004087686073035002,-0.005014199763536453,-0.0023150858469307423
1782846169212779800,0.55377978515625,0.002624811604619026,-0.006406234111636877,-0.0011590076610445976
1782846169222784800,0.56378466796875,0.001160072977654636,-0.003234142903238535,-0.00006338323146337643
1782846169232789800,0.573789794921875,-0.0001584580895723775,-0.0010388991795480251,0.0012516856659203768
1782846169242794800,0.583794677734375,0.0028245486319065094,-0.0017454357584938407,-0.002549177734181285
1782846169252799700,0.5937998046875,0.0028487835079431534,-0.00347489258274436,-0.0033486587926745415
1782846169262804700,0.6038046875,0.00166580721270293,-0.00449727987870574,0.0011733887949958444
1782846169272809700,0.613809814453125,0.005404352676123381,-0.003626160090789199,0.0009914948605000973
1782846169282814700,0.623814697265625,0.0011680624447762966,-0.0035457327030599117,0.0014152037911117077
1782846169292819700,0.63381982421875,0.0030839405953884125,-0.0030208237003535032,-0.000749679864384234
1782846169302824700,0.64382470703125,0.000559263804461807,-0.00509968725964427,-0.002502572489902377
1782846169312829700,0.65382958984375,0.002103364560753107,-0.003468767274171114,-0.0005230448441579938
1782846169322835000,0.6638349609375,0.0009861685102805495,-0.0019326560432091355,0.0023821976501494646
1782846169332840000,0.67383984375,0.002541188383474946,-0.0035896748304367065,-0.003998470026999712
1782846169342845000,0.683844970703125,0.003563842037692666,-0.00177899154368788,-0.000322775129461661
1782846169352850000,0.693849853515625,0.0019984361715614796,-0.003941744565963745,-0.0004878911131527275
1782846169362855000,0.70385498046875,0.003817641409114003,-0.0036908749025315046,0.0007398261222988367
1782846169372860000,0.71385986328125,0.0029859361238777637,-0.004461593925952911,-0.002814428647980094
1782846169382865000,0.723864990234375,0.0019358517602086067,-0.0037609159480780363,-0.0033393376506865025
1782846169392870000,0.733869873046875,0.003576359013095498,-0.004415787290781736,0.0022117553744465113
1782846169402875000,0.743875,0.0023877902422100306,-0.004701011814177036,0.0014647386269643903
1782846169412880000,0.7538798828125,0.0034551850985735655,-0.004896221682429314,-0.0024399880785495043
1782846169422884900,0.763884765625,0.004225904121994972,-0.005298625212162733,-0.0024104269687086344
1782846169432889900,0.773889892578125,0.0036674391012638807,-0.0030953921377658844,-0.00010333064710721374
1782846169442894800,0.783894775390625,0.0019414444686844945,-0.0026881948579102755,0.000050333743274677545
1782846169452900000,0.793900146484375,0.0016309198690578341,-0.002311623888090253,-0.0031033814884722233
1782846169462905000,0.803905029296875,0.0014671353856101632,-0.002606435678899288,-0.0016463662032037973
1782846169472910000,0.81391015625,0.0031670311000198126,-0.002749181119725108,0.0006090649403631687
1782846169482915000,0.8239150390625,0.0032714270055294037,-0.0031667647417634726,-0.0005768407136201859
1782846169492920000,0.833920166015625,0.003915112931281328,-0.001933721243403852,-0.00046845004544593394
1782846169502925000,0.843925048828125,0.002921221312135458,-0.00449994346126914,-0.0025039040483534336
1782846169512930000,0.853929931640625,0.0007784419576637447,-0.0023576964158564806,0.002514024032279849
1782846169522935000,0.86393505859375,0.0007297061383724213,-0.003635214874520898,-0.0014024205738678575
1782846169532940000,0.87393994140625,0.0008673915872350335,-0.0035862126387655735,-0.001900964416563511
1782846169542945000,0.883945068359375,0.0009275790071114898,0.0003510046226438135,0.001219461439177394
1782846169552950000,0.893949951171875,0.0012990899849683046,-0.004284493625164032,0.0005022721597924829
1782846169562955300,0.903955322265625,0.0024141555186361074,-0.004096208140254021,-0.0005174521938897669
1782846169572960300,0.913960205078125,0.004743356257677078,-0.003061569994315505,-0.0017036241479218006
1782846169582965200,0.92396533203125,0.003010969841852784,-0.0037092508282512426,-0.0011912320042029023
1782846169592970200,0.93397021484375,0.0033635725267231464,-0.004948153160512447,-0.0020849888678640127
1782846169602975200,0.943975341796875,0.002811232814565301,-0.004426706116646528,-0.0029379993211477995
1782846169612980200,0.953980224609375,0.0019105518003925681,-0.004067978356033564,-0.0014053500490263104
1782846169622985200,0.963985107421875,-0.00006338323146337643,-0.00549170421436429,-0.000027164242055732757
1782846169632990200,0.973990234375,0.0013662016717717052,-0.0028490496333688498,-0.002540122950449586
1782846169642995200,0.9839951171875,0.0010101370280608535,-0.002299639629200101,-0.0004985437262803316
1782846169653000200,0.994000244140625,0.002433596644550562,-0.00452817277982831,-0.001853560097515583
1782846169663005200,1.004005126953125,0.0021939121652394533,-0.0006119944155216217,-0.001151018193922937
1782846169673010200,1.01401025390625,0.0020117517560720444,-0.0009813748765736818,-0.003230414353311062
1782846169683015200,1.02401513671875,0.0008500810363329947,-0.001945439144037664,-0.0005185174522921443
1782846169693020400,1.0340205078125,0.001181111903861165,-0.0033041839487850666,-0.003114300547167659
1782846169703025400,1.044025390625,0.00264744833111763,-0.004510595928877592,-0.0019446401856839657
1782846169713030400,1.054030517578125,0.0029965888243168592,-0.0039044604636728764,0.0015427692560479045
1782846169723035400,1.064035400390625,0.0035894084721803665,-0.005095425993204117,-0.0004703142330981791
1782846169733040400,1.074040283203125,0.0029784792568534613,-0.0030719563364982605,0.0012522183824330568
1782846169743045400,1.08404541015625,0.0033547841012477875,-0.0023347933311015368,-0.0017014936311170459
1782846169753050400,1.09405029296875,0.0026341325137764215,-0.00407543545588851,-0.003352653468027711
1782846169763055400,1.104055419921875,0.0025955168530344963,-0.003849332919344306,-0.0033928672783076763
1782846169773060400,1.114060302734375,0.0013946974650025368,-0.004245345015078783,-0.0028189560398459435
1782846169783065300,1.1240654296875,0.0019361181184649467,-0.0040948763489723206,-0.00324825756251812
1782846169793070300,1.1340703125,-0.0007246461464092135,-0.00333267985843122,0.0014775217277929187
1782846169803075300,1.144075439453125,0.0019832560792565346,-0.004325239919126034,-0.0015787219163030386
1782846169813080300,1.154080322265625,0.002394980750977993,-0.006852846127003431,-0.0013222594279795885
1782846169823085300,1.164085205078125,0.002395513467490673,-0.003924966789782047,-0.0004005394293926656
1782846169833090300,1.17409033203125,0.005686914082616568,-0.0034432008396834135,0.0032711606472730637
1782846169843095300,1.18409521484375,0.00187992537394166,-0.003212304785847664,0.0013409015955403447
1782846169853100300,1.194100341796875,-0.00017843178648035973,-0.004580636974424124,-0.0008439557277597487
1782846169863105300,1.204105224609375,0.002377670258283615,-0.005583583377301693,-0.000027696874894900247
1782846169873110300,1.2141103515625,0.00276196445338428,-0.0034557178150862455,-0.0015150723047554493
1782846169883115300,1.224115234375,0.004033091012388468,-0.003555586328729987,-0.003369963960722089
1782846169893120300,1.234120361328125,0.0033686324022710323,-0.0025185514241456985,-0.0022362563759088516
1782846169903125200,1.244125244140625,0.001341434195637703,-0.00006684534309897572,-0.001261539408005774
1782846169913130200,1.254130126953125,0.00313560594804585,-0.0007494135061278939,-0.004707669839262962
1782846169923135200,1.26413525390625,0.0019829897210001945,-0.003192331176251173,-0.0014165353495627642
1782846169933140200,1.27414013671875,0.0017212009988725185,-0.004474110435694456,0.0009946906939148903
1782846169943145200,1.284145263671875,0.000660463934764266,-0.002517219865694642,-0.005022721830755472
1782846169953150200,1.294150146484375,0.001273523666895926,-0.002127599436789751,-0.0031555795576423407
1782846169963155200,1.3041552734375,0.0016306535108014941,-0.0041398839093744755,-0.002156095113605261
1782846169973160200,1.31416015625,0.003650128608569503,-0.002600044244900346,0.0014908375451341271
1782846169983165200,1.324165283203125,0.003371029393747449,-0.0031904669012874365,-0.0005795038305222988
1782846169993170200,1.334170166015625,-0.00043569316039793193,-0.0029984530992805958,0.00035180358099751174
1782846170003175200,1.344175048828125,0.0037172401789575815,-0.004215251188725233,-0.0023422501981258392
1782846170013180200,1.35418017578125,0.002356098499149084,-0.00415319949388504,-0.000559263804461807
1782846170023185200,1.36418505859375,0.002222940558567643,-0.004384894855320454,0.0007193197961896658
1782846170033190100,1.374190185546875,0.0018612833227962255,-0.00404640706256032,-0.0023305322974920273
1782846170043195100,1.384195068359375,0.0017326525412499905,-0.003225354477763176,-0.0008442220860160887
1782846170053200100,1.3942001953125,0.0017515610670670867,-0.006713296286761761,-0.001671932521276176
1782846170063205000,1.404205078125,0.0015635418239980936,-0.005387042183429003,-0.001785116852261126
1782846170073210000,1.414210205078125,0.0022178804501891136,-0.0005435511702671647,-0.0016085492679849267
1782846170083215400,1.42421533203125,0.0022652847692370415,-0.0026581010315567255,-0.0016495619202032685
1782846170093220400,1.434220458984375,0.0017893778858706355,-0.002808569697663188,-0.0035625104792416096
1782846170103225300,1.444225341796875,0.001490304945036769,-0.001669003046117723,-0.0010554107138887048
1782846170113230300,1.454230224609375,-0.000023435817638528533,-0.002968891989439726,-0.0005768407136201859
1782846170123235300,1.4642353515625,0.002335326047614217,-0.003308444982394576,0.0006804376607760787
1782846170133240300,1.474240234375,0.002531068166717887,-0.0031915323343127966,-0.0008817726047709584
1782846170143245300,1.484245361328125,0.001996571896597743,-0.003498328384011984,-0.0007872303831391037
1782846170153250300,1.494250244140625,0.0025619608350098133,-0.0021973741240799427,0.002118278294801712
1782846170163255300,1.50425537109375,0.0014879080699756742,-0.005386509466916323,0.0008998821140266955
1782846170173260300,1.51426025390625,0.0023584954906255007,-0.0035582494456321,-0.000024767397917457856
1782846170183265300,1.524265380859375,0.004591555800288916,-0.0034815503749996424,0.00021491710504051298
1782846170193270300,1.534270263671875,0.002409361768513918,-0.001499625970609486,-0.0036045885644853115
1782846170203275300,1.544275146484375,0.00264744833111763,0.00017603494052309543,-0.0010492854053154588
1782846170213280300,1.5542802734375,0.003954794257879257,-0.00014700648898724467,-0.003810983384028077
1782846170223285200,1.56428515625,0.0021608888637274504,-0.0024146882351487875,-0.0009536779834888875
1782846170233290200,1.574290283203125,0.002835201332345605,-0.005344697739928961,-0.0021025657188147306
1782846170243295200,1.584295166015625,0.0021869877818971872,-0.003022421384230256,-0.0007795072160661221
1782846170253300200,1.59430029296875,0.0031127026304602623,-0.004606735892593861,-0.0008322378271259367
1782846170263305200,1.60430517578125,0.002204830991104245,-0.0018836538074538112,-0.0014002900570631027
1782846170273310200,1.614310302734375,0.0028221518732607365,-0.003710848744958639,-0.0011821772204712033
1782846170283315200,1.624315185546875,0.0036586506757885218,-0.004804608877748251,0.0003640541108325124
1782846170293320200,1.6343203125,0.0023675502743571997,-0.0017219999572262168,0.0008862999966368079
1782846170303325200,1.6443251953125,0.0057468353770673275,-0.0006844323943369091,-0.0015089471125975251
1782846170313330200,1.654330078125,0.0024881914723664522,-0.0033100428991019726,-0.000728907180018723
1782846170323335200,1.664335205078125,0.000711064029019326,-0.005604089703410864,0.0011289139511063695
1782846170333340200,1.674340087890625,0.0010349043877795339,-0.0032439965289086103,-0.001847967505455017
1782846170343345200,1.68434521484375,0.0017419736832380295,-0.002537726191803813,-0.005091165192425251
1782846170353350100,1.69435009765625,0.0033715618774294853,-0.005303685087710619,-0.002579537918791175
1782846170363355100,1.704355224609375,0.0021164140198379755,-0.0013046825770288706,0.0004942826926708221
1782846170373360000,1.714360107421875,0.002133458387106657,-0.00279046013019979,-0.0011081412667408586
1782846170383365000,1.724365234375,0.0021233384031802416,-0.0037593182642012835,-0.000261788722127676
1782846170393370000,1.7343701171875,0.003952397499233484,-0.002907106652855873,0.0011558119440451264
1782846170403375000,1.744375,0.00227860058657825,-0.004372910596430302,0.0003802994033321738
1782846170413380000,1.754380126953125,0.0008093346259556711,-0.001437308033928275,-0.0029020465444773436
1782846170423385000,1.764385009765625,0.002403236459940672,-0.0007134608458727598,-0.005487177055329084
1782846170433391400,1.774391357421875,0.0017102820565924048,-0.004481034819036722,-0.0013097425689920783
1782846170443395000,1.78439501953125,0.003350256709381938,-0.0021518340799957514,-0.00015153386630117893
1782846170453399300,1.7943994140625,0.005730589851737022,-0.00250523560680449,-0.005882390309125185
1782846170463405300,1.8044052734375,0.0046152579598128796,-0.001927862293086946,-0.003989947959780693
1782846170473410300,1.814410400390625,0.0009816411184147,-0.0014966964954510331,-0.0008575378451496363
1782846170483415300,1.824415283203125,0.004459463059902191,-0.001014398061670363,0.002198705682530999
1782846170493420300,1.834420166015625,0.0027622305788099766,-0.0022543659433722496,-0.0013542174128815532
1782846170503425300,1.84442529296875,0.001958488719537854,-0.004038417246192694,-0.0008692557457834482
1782846170513430500,1.854430419921875,0.002311623888090253,-0.003931624814867973,-0.0014958975370973349
1782846170523435500,1.864435546875,-0.0014628743520006537,-0.003373958868905902,-0.00036751621519215405
1782846170533440500,1.8744404296875,0.0017531589837744832,-0.003093794221058488,0.0004487426485866308
1782846170543445500,1.884445556640625,0.0014554174849763513,-0.00404454255476594,-0.00039787625428289175
1782846170553450500,1.894450439453125,0.0006205165409483016,-0.00347435986623168,-0.0017411747248843312
1782846170563455500,1.90445556640625,0.0028727517928928137,-0.0031641016248613596,-0.0008713863207958639
1782846170573460500,1.91446044921875,0.00101146858651191,-0.0021193434949964285,0.0005611280212178826
1782846170583465500,1.924465576171875,0.0008769789128564298,-0.003739078063517809,-0.0008412926108576357
1782846170593470500,1.934470458984375,0.0015595471486449242,-0.006912234704941511,0.0010615360224619508
1782846170603475500,1.944475341796875,0.0007781756576150656,-0.0020873856265097857,-0.0011664645280689
1782846170613480400,1.95448046875,-0.000040480048483004794,-0.0021382521372288465,-0.003326021833345294
1782846170623485400,1.9644853515625,-0.00036911413189955056,-0.003094326937571168,0.0003510046226438135
1782846170633490700,1.97449072265625,0.0019374496769160032,-0.003433613572269678,-0.002971288748085499
1782846170643495700,1.98449560546875,0.0038488004356622696,-0.002846919232979417,-0.0019225359428673983
1782846170653500700,1.994500732421875,0.001329716295003891,-0.003593403147533536,-0.0016016251174733043
1782846170663505700,2.004505615234375,0.003634415799751878,-0.0037590519059449434,0.0019313243683427572
1782846170673510700,2.0145107421875,0.001508414396084845,-0.0022711437195539474,-0.002510561840608716
1782846170683515600,2.024515625,0.0016908409306779504,-0.0034357442054897547,-0.0018032263033092022
1782846170693520600,2.034520751953125,0.0020730046089738607,-0.0017907095607370138,0.0005448827287182212
1782846170703525600,2.044525634765625,0.0034320156555622816,-0.004715925548225641,-0.0008466189028695226
1782846170713530600,2.054530517578125,0.002435727044939995,-0.004664260428398848,0.00012436961696948856
1782846170723535600,2.06453564453125,0.0009097357979044318,-0.0046783750876784325,-0.0004396878939587623
1782846170733540600,2.07454052734375,0.0016831178218126297,-0.003367300843819976,-0.0013366405619308352
1782846170743545600,2.084545654296875,0.0017270599491894245,-0.002231196267530322,-0.0011976235546171665
1782846170753550600,2.094550537109375,0.0027387947775423527,0.0003968109958805144,-0.0005672533297911286
1782846170763555600,2.1045556640625,-0.0003296993381809443,-0.003213636577129364,-0.0019209380261600018
1782846170773560600,2.114560546875,0.003687146585434675,-0.00421205535531044,-0.0026820695493370295
1782846170783565600,2.124565673828125,0.002769953804090619,-0.0029952572658658028,-0.0018905780743807554
1782846170793570600,2.134570556640625,0.0007217166712507606,-0.0032804817892611027,-0.0029521139804273844
1782846170803575600,2.144575439453125,0.001184307737275958,-0.002225070958957076,-0.0015603461069986224
1782846170813580500,2.15458056640625,0.0029502499382942915,-0.0023529028985649347,-0.0025920546613633633
1782846170823585500,2.16458544921875,0.001955026527866721,-0.006397445686161518,-0.0010218549286946654
1782846170833590500,2.174590576171875,0.00037923414492979646,-0.002085521351546049,-0.0007968177669681609
1782846170843595500,2.184595458984375,0.0030389330349862576,-0.0033923345617949963,-0.0017443705582991242
1782846170853600500,2.1946005859375,0.0031121699139475822,-0.0026762105990201235,-0.0025414545089006424
1782846170863605500,2.20460546875,0.0002069276088150218,-0.0035691685043275356,-0.0033920682035386562
1782846170873610500,2.214610595703125,0.002665557898581028,-0.002273274352774024,-0.0001382180635118857
1782846170883615500,2.224615478515625,0.0008625978953205049,-0.0017132115317508578,-0.003743072971701622
1782846170893620500,2.234620361328125,0.0034533210564404726,-0.0018793927738443017,-0.0006799050024710596
1782846170903625500,2.24462548828125,0.0027917916886508465,-0.0038567897863686085,-0.0021555626299232244
1782846170913630500,2.25463037109375,0.003305515507236123,-0.003369697602465749,0.0014359764754772186
1782846170923635500,2.264635498046875,0.003350256709381938,-0.001532382913865149,-0.0018154769204556942
1782846170933640400,2.274640380859375,0.002341983839869499,-0.003932423423975706,0.0003094593121204525
1782846170943645400,2.2846455078125,0.0007739146240055561,-0.0044043357484042645,-0.0002580603177193552
1782846170953650400,2.294650390625,0.002371811307966709,-0.003932157531380653,-0.00279072648845613
1782846170963655400,2.304655517578125,0.0023992417845875025,-0.0036479979753494263,0.00047058056225068867
1782846170973660400,2.314660400390625,0.001116130850277841,-0.005834719631820917,-0.0005808354471810162
1782846170983665400,2.32466552734375,0.0005318332696333528,-0.003034672001376748,0.001520665013231337
1782846170993670400,2.33467041015625,0.001701759872958064,-0.0027180220931768417,-0.0036735644098371267
1782846171003675400,2.34467529296875,0.001255414099432528,-0.002674879040569067,0.0022173479665070772
1782846171013680400,2.354680419921875,0.0040948763489723206,-0.004099137615412474,-0.0037880802992731333
1782846171023685400,2.364685302734375,0.002091913018375635,-0.00424268189817667,-0.0023457121569663286
1782846171033690400,2.3746904296875,0.0033625070936977863,-0.003335609333589673,-0.0024642229545861483
1782846171043695400,2.3846953125,-0.0003755057114176452,-0.002627474721521139,-0.0012575446162372828
1782846171053700400,2.394700439453125,0.00048709215479902923,-0.004025900736451149,-0.0026343988720327616
1782846171063705300,2.404705322265625,-0.00019760655413847417,-0.0036658411845564842,-0.0005685848882421851
1782846171073710300,2.41471044921875,0.004101534374058247,-0.0016476977616548538,0.00044794369023293257
1782846171083715300,2.42471533203125,0.0018133464036509395,-0.004719121381640434,-0.001990712946280837
1782846171093720300,2.43472021484375,0.002074069809168577,-0.0030328077264130116,-0.002439721953123808
1782846171103725300,2.444725341796875,0.0017238641157746315,-0.0030104373581707478,-0.0033952640369534492
1782846171113730300,2.454730224609375,0.0023931164760142565,-0.0032493227627128363,0.00043302998528815806
1782846171123735600,2.464735595703125,0.0026229473296552896,-0.0054339137859642506,0.0002436792419757694
1782846171133740500,2.474740478515625,0.0010764497565105557,-0.004880775231868029,-0.0026354643050581217
1782846171143745500,2.48474560546875,0.0008623315370641649,-0.0018895127577707171,-0.00045087316539138556
1782846171153750500,2.49475048828125,0.0022801985032856464,-0.004251470323652029,-0.0038040592335164547
1782846171163755500,2.504755615234375,-0.0003062635369133204,-0.0016479641199111938,0.0008671252289786935
1782846171173760500,2.514760498046875,0.0031411985401064157,-0.00401551416143775,-0.0028613002505153418
1782846171183765500,2.524765625,0.002772883279249072,-0.004314587451517582,-0.0011446266435086727
1782846171193770500,2.5347705078125,0.0024674187880009413,-0.006684001535177231,0.001711081014946103
1782846171203775500,2.544775390625,0.0020881847012788057,-0.0038370825350284576,-0.0008327704854309559
1782846171213780500,2.554780517578125,0.00196434766985476,-0.0030652983114123344,-0.0028213527984917164
1782846171223785500,2.564785400390625,0.0005097290268167853,-0.0043779704719781876,-0.002650377806276083
1782846171233790500,2.57479052734375,0.0005246427026577294,-0.0037997981999069452,-0.0015188007382676005
1782846171243795500,2.58479541015625,0.003087668912485242,-0.0028360001742839813,-0.001252484624274075
1782846171253800400,2.594800537109375,0.0026197514962404966,-0.005440039094537497,-0.0004037352045997977
1782846171263805400,2.604805419921875,0.003215234261006117,-0.0017323862994089723,-0.000835966260638088
1782846171273811500,2.6148115234375,0.0025007082149386406,-0.004486893769353628,-0.0014772554859519005
1782846171283816700,2.624816650390625,0.0006064017652533948,-0.002127865795046091,-0.0018402442801743746
1782846171293821700,2.63482177734375,0.0015954998089000583,-0.0024351945612579584,-0.0005776396137662232
1782846171303826700,2.64482666015625,0.0031854070257395506,-0.004969991277903318,-0.0012684636749327183
1782846171313831700,2.654831787109375,0.0016831178218126297,-0.0020234698895365,-0.000014913702216290403
1782846171323836700,2.664836669921875,0.0027566379867494106,-0.0037143107037991285,-0.003183542750775814
1782846171333841700,2.674841552734375,0.0021065603941679,-0.00452764006331563,-0.0017321199411526322
1782846171343846700,2.6848466796875,-0.0002466087171342224,-0.003373692510649562,-0.0031108383554965258
1782846171353851600,2.6948515625,0.0012506204657256603,-0.005077582783997059,-0.00012889699428342283
1782846171363856600,2.704856689453125,0.0016178702935576439,-0.004735100548714399,-0.0015675366157665849
1782846171373861600,2.714861572265625,0.003209641668945551,-0.002770486520603299,0.0001001348573481664
1782846171383866600,2.72486669921875,0.0008311725687235594,-0.001957423286512494,-0.0010407633380964398
1782846171393871600,2.73487158203125,0.0018194715958088636,-0.0019153454340994358,-0.001776328426785767
1782846171403876600,2.744876708984375,0.0021960425656288862,-0.002980876248329878,-0.0014029532903805375
1782846171413881600,2.754881591796875,0.004292482975870371,-0.0034346787724643946,-0.0018319884547963738
1782846171423886600,2.764886474609375,0.004311125259846449,-0.003976366017013788,-0.00042770366417244077
1782846171433891600,2.7748916015625,0.0005954828229732811,-0.004989432170987129,-0.0004721784498542547
1782846171443896600,2.784896484375,0.0038336203433573246,-0.0027409254107624292,-0.0037521275226026773
1782846171453902000,2.794902099609375,0.002653573639690876,-0.004239486064761877,-0.002132659312337637
1782846171463907000,2.804906982421875,0.0021116205025464296,-0.002466619713231921,-0.000556334329303354
1782846171473912000,2.814912109375,0.004236556589603424,-0.006250172853469849,-0.0001531317684566602
1782846171483917000,2.8249169921875,0.0016202671686187387,-0.0031667647417634726,0.0002234392159152776
1782846171493922000,2.834922119140625,0.001514806062914431,-0.004020574036985636,-0.0009004147723317146
1782846171503927000,2.844927001953125,0.002721750643104315,-0.004244812298566103,-0.0005872269975952804
1782846171513932000,2.85493212890625,0.002404035534709692,-0.003969707991927862,-0.0021979068405926228
1782846171523937000,2.86493701171875,0.003311640815809369,-0.003838414093479514,-0.001002413802780211
1782846171533942000,2.87494189453125,0.0007624630234204233,-0.0006471481174230576,-0.000910268456209451
1782846171543947000,2.884947021484375,0.0023073628544807434,-0.0031457259319722652,-0.0028551749419420958
1782846171553952000,2.894951904296875,0.0007374293054454029,-0.002671949565410614,-0.0010341054294258356
1782846171563957000,2.90495703125,0.0031241541728377342,-0.00202293717302382,0.0007619303651154041
1782846171573962000,2.9149619140625,0.001618403010070324,-0.0026176210958510637,-0.0036525253672152758
1782846171583967000,2.924967041015625,0.0017664746847003698,-0.005613677203655243,-0.0015536881983280182
1782846171593972000,2.934971923828125,0.0026221484877169132,-0.004433364141732454,0.0005994775565341115
1782846171603977000,2.94497705078125,0.002591521944850683,-0.0019523634109646082,-0.0021169467363506556
1782846171613982000,2.95498193359375,0.002424808219075203,-0.0014122743159532547,-0.0021233384031802416
1782846171623987000,2.964987060546875,0.0006719155353493989,-0.0016229304019361734,-0.0006612628931179643
1782846171633992000,2.974991943359375,0.0025031049735844135,-0.002775812754407525,0.00063383235828951
1782846171643997000,2.984996826171875,0.004168645944446325,-0.00643765926361084,0.0013046825770288706
1782846171654002000,2.995001953125,0.0025331987999379635,-0.0021052288357168436,-0.0009973538108170033
1782846171664007000,3.0050068359375,0.004518052563071251,0.00037950044497847557,-0.00017550231132190675
1782846171674012000,3.015011962890625,0.002302302746102214,-0.004751345608383417,-0.0006894923863001168
1782846171684017000,3.025016845703125,0.0009656621841713786,-0.0024916534312069416,0.00030786142451688647
1782846171694022000,3.03502197265625,0.0026258768048137426,-0.003870105603709817,-0.002121207769960165
1782846171704027000,3.04502685546875,0.001758218975737691,-0.004984372295439243,-0.004659200087189674
1782846171714031900,3.055031982421875,0.0031973912846297026,-0.0032679650466889143,-0.0015576828736811876
1782846171724036900,3.065036865234375,0.0028386632911860943,-0.003245061729103327,0.000185888638952747
1782846171734041900,3.075041748046875,0.003062102710828185,-0.0023611586075276136,-0.00270710326731205
1782846171744046800,3.085046875,0.0034408040810376406,-0.0041159153915941715,-0.00170761882327497
1782846171754051800,3.0950517578125,0.0006889597862027586,-0.0036674391012638807,-0.0017875137273222208
1782846171764056800,3.105056884765625,0.004144677426666021,-0.0020032296888530254,-0.002026399364694953
1782846171774061800,3.115061767578125,-0.0005012069013901055,-0.004588892683386803,-0.0010133327450603247
1782846171784066800,3.12506689453125,0.003376355627551675,-0.004760400392115116,-0.003637877991423011
1782846171794071800,3.13507177734375,0.001344630029052496,-0.0038687740452587605,-0.002406698651611805
1782846171804076800,3.145076904296875,-0.00138031633105129,-0.00373055599629879,0.0011283813510090113
1782846171814081800,3.155081787109375,-0.00010839065362233669,-0.0025102957151830196,-0.0006082659820094705
1782846171824086800,3.165086669921875,0.001219727797433734,-0.004966262727975845,-0.0005001416429877281
1782846171834091800,3.175091796875,0.0033417344093322754,-0.002359294332563877,-0.0008514125947840512
1782846171844097000,3.185096923828125,0.003912449814379215,-0.0026495789643377066,0.004716458264738321
1782846171854102000,3.19510205078125,0.0008186557097360492,-0.0016556872287765145,-0.0005531385540962219
1782846171864107000,3.20510693359375,0.0000881506348378025,-0.002630404196679592,-0.0014628743520006537
1782846171874112300,3.2151123046875,0.0032077773939818144,-0.0019686087034642696,-0.0024810009635984898
1782846171884117200,3.2251171875,0.0019198728259652853,-0.00341523764654994,-0.001136637176387012
1782846171894122200,3.235122314453125,0.0016847157385200262,-0.0036277580074965954,-0.0010996191995218396
1782846171904127200,3.245127197265625,0.0027198863681405783,-0.0019803266040980816,-0.0028418591246008873
1782846171914132200,3.25513232421875,0.0018333201296627522,-0.0026112294290214777,-0.0010929612908512354
1782846171924137200,3.26513720703125,0.0014303837670013309,-0.0038221688009798527,0.0003789678157772869
1782846171934142200,3.27514208984375,0.0052176653407514095,-0.003725496120750904,-0.0020991035271435976
1782846171944147200,3.285147216796875,0.004400607198476791,-0.001067927572876215,-0.001121989800594747
1782846171954152200,3.295152099609375,0.0024823325220495462,-0.00250470289029181,-0.00033396040089428425
1782846171964157200,3.3051572265625,0.0030567762441933155,-0.00318940170109272,-0.0009065400226972997
1782846171974162200,3.315162109375,0.002142513170838356,-0.002043976215645671,-0.003493002150207758
1782846171984168000,3.32516796875,0.002721750643104315,-0.005124720744788647,-0.000028495824153651483
1782846171994173000,3.3351728515625,0.0018759306985884905,-0.003824033075943589,-0.001279382617212832
1782846172004178000,3.345177978515625,0.002415753435343504,-0.0027973842807114124,-0.001862082164734602
1782846172014183200,3.35518310546875,0.001874332781881094,-0.0041191112250089645,-0.0012626046082004905
1782846172024188200,3.365188232421875,0.0024048343766480684,-0.006117281038314104,0.0003499393642414361
1782846172034193200,3.375193115234375,0.0033182986080646515,-0.003942277282476425,-0.0027470507193356752
1782846172044198100,3.3851982421875,0.0014061490073800087,-0.006758037488907576,0.0006804376607760787
1782846172054203100,3.395203125,0.002674879040569067,-0.0034061830956488848,0.001044758129864931
1782846172064208100,3.4052080078125,0.0036637107841670513,-0.002787530655041337,-0.0018365158466622233
1782846172074213000,3.415213134765625,0.00256435782648623,-0.004766259342432022,-0.001184307737275958
1782846172084218000,3.425218017578125,0.000300404557492584,-0.003305781865492463,-0.001079645473510027
1782846172094223000,3.43522314453125,0.0023848607670515776,-0.0037057886365801096,-0.000176301269675605
1782846172104228000,3.44522802734375,0.0026048377621918917,-0.0033329459838569164,-0.0004237089306116104
1782846172114233000,3.455233154296875,0.0025683525018393993,-0.0036397422663867474,0.0012455604737624526
1782846172124238000,3.465238037109375,0.0027531760279089212,-0.0031164311803877354,0.00023222764139063656
1782846172134243000,3.4752431640625,0.001930525409989059,-0.003459446132183075,-0.003299390198662877
1782846172144248000,3.485248046875,0.0015763250412419438,-0.005675995256751776,-0.0029049760196357965
1782846172154253000,3.495253173828125,0.0006894923863001168,-0.002778742229565978,0.0005451490869745612
1782846172164258000,3.505258056640625,-0.00021145498612895608,-0.002554770326241851,0.001193096162751317
1782846172174263000,3.515262939453125,0.0017928400775417686,-0.004597148858010769,-0.0010777813149616122
1782846172184268000,3.52526806640625,0.0020365193486213684,-0.004175570327788591,-0.0023190807551145554
1782846172194273000,3.53527294921875,0.0007235808880068362,-0.004072239622473717,-0.0006048039067536592
1782846172204278000,3.545278076171875,0.0005906891310587525,-0.006792658474296331,0.0011646003695204854
1782846172214283000,3.555282958984375,0.0017358483746647835,-0.0016855146968737245,-0.0011883024126291275
1782846172224288000,3.5652880859375,0.002002430846914649,-0.0057473680935800076,0.00007590009045088664
1782846172234293000,3.57529296875,0.0008828379213809967,-0.003067428944632411,-0.0014615427935495973
1782846172244298000,3.585298095703125,0.0032139027025550604,-0.003174221608787775,-0.00115421402733773
1782846172254303000,3.595302978515625,0.002234125742688775,-0.00541473925113678,0.00044128578156232834
1782846172264308000,3.605307861328125,0.0017275925492867827,-0.0037835529074072838,-0.0022889869287610054
1782846172274313000,3.61531298828125,0.0031462584156543016,-0.002502306131646037,-0.0008130630594678223
1782846172284318000,3.62531787109375,0.003260774305090308,-0.004064782522618771,-0.0009635316673666239
1782846172294323000,3.635322998046875,0.0024983114562928677,-0.003908189013600349,-0.0032120386604219675
1782846172304328000,3.645327880859375,0.003522563260048628,-0.004685831721872091,-0.00105301383882761
1782846172314333000,3.6553330078125,0.0008711199625395238,-0.001529187080450356,-0.0008436894277110696
1782846172324338000,3.665337890625,0.0004886900424025953,-0.002418150193989277,0.0007041397620923817
1782846172334343000,3.675343017578125,0.0033949976786971092,-0.005900499876588583,-0.0037025928031653166
1782846172344348000,3.685347900390625,0.0012887036427855492,-0.0037004624027758837,-0.001972869737073779
1782846172354353000,3.695352783203125,0.0015952334506437182,-0.0016881778137758374,-0.001130511867813766
1782846172364358000,3.70535791015625,0.002098038326948881,-0.00239151855930686,-0.0016194682102650404
1782846172374363000,3.71536279296875,0.0023307986557483673,-0.005543369799852371,-0.0013025520602241158
1782846172384367900,3.725367919921875,0.001511610229499638,-0.003841077210381627,-0.000028229507734067738
1782846172394372900,3.735372802734375,-0.00026312030968256295,-0.005695702508091927,-0.0033984598703682423
1782846172404377900,3.7453779296875,0.004705006722360849,-0.0028357338160276413,0.0005187837523408234
1782846172414382800,3.7553828125,0.0032538501545786858,-0.0028160265646874905,0.0004575310740619898
1782846172424387800,3.765387939453125,0.004677576012909412,-0.00333241350017488,0.00007297061529243365
1782846172434392800,3.775392822265625,0.000009321063771494664,-0.00287461606785655,-0.0017736653098836541
1782846172444397800,3.785397705078125,0.002001898130401969,-0.004856540355831385,-0.002749713836237788
1782846172454402600,3.795402587890625,0.0029675604309886694,-0.0040943436324596405,-0.0017891116440296173
1782846172464407600,3.805407470703125,0.00264771468937397,-0.004752411041408777,-0.0007395598222501576
1782846172474412500,3.81541259765625,0.0007869640830904245,-0.003478088416159153,0.000019707391402334906
1782846172484417500,3.82541748046875,0.0020836573094129562,-0.0020929782185703516,-0.002986468840390444
1782846172494422500,3.835422607421875,0.0003352919884491712,-0.003145193215459585,0.0014732606941834092
1782846172504427500,3.845427490234375,0.002246909076347947,-0.004512459971010685,-0.000051399008953012526
1782846172514432500,3.8554326171875,0.004253867082297802,-0.0008844357798807323,-0.001216265605762601
1782846172524437500,3.8654375,0.0005030711181461811,-0.0028013791888952255,-0.00452710734680295
1782846172534442500,3.8754423828125,0.002463423879817128,-0.002796585438773036,-0.0016490293201059103
1782846172544447500,3.885447509765625,-0.00014860439114272594,-0.005151618737727404,-0.0005486111622303724
1782846172554452500,3.895452392578125,0.004055728204548359,-0.0032748891972005367,-7.989483492565341e-7
1782846172564457500,3.90545751953125,0.002514556748792529,-0.004025101661682129,-0.0017417073249816895
1782846172574462500,3.91546240234375,0.002596848411485553,-0.004083424806594849,-0.0017544905422255397
1782846172584467500,3.925467529296875,-0.000355532014509663,-0.0006223807577043772,-0.0002777676854748279
1782846172594472400,3.935472412109375,0.0005994775565341115,-0.0007912251749075949,-0.0018735338235273957
1782846172604477400,3.9454775390625,0.004728442523628473,-0.0016799219883978367,-0.0003534014686010778
1782846172614482400,3.955482421875,0.002126534003764391,-0.002910302486270666,-0.0035393410362303257
1782846172624487400,3.9654873046875,0.0017267935909330845,-0.004697815980762243,-0.004169711377471685
1782846172634492400,3.975492431640625,0.0016338493442162871,-0.0032631712965667248,-0.000025566347176209092
1782846172644497400,3.985497314453125,0.003206712193787098,-0.00162426196038723,-0.001282312092371285
1782846172654502400,3.99550244140625,0.0012450277572497725,-0.001714010490104556,0.00002210423735959921
1782846172664507400,4.00550732421875,0.0011994877131655812,-0.0015899071004241705,0.0003075950953643769
1782846172674512400,4.015512451171875,0.0031055121216923,-0.0031220237724483013,-0.0024458470288664103
1782846172684517400,4.025517333984375,0.002540922025218606,-0.004506867378950119,-0.0025238776579499245
1782846172694523600,4.035523681640625,0.0017235978739336133,-0.002775280037894845,-0.00023702133330516517
1782846172704528600,4.045528564453125,0.00040027310024015605,-0.004375840071588755,-0.00035260253935121
1782846172714533600,4.05553369140625,0.0022770026698708534,-0.0010197244118899107,-0.001725462032482028
1782846172724538600,4.06553857421875,0.0010101370280608535,-0.002883670851588249,0.001416269107721746
1782846172734543600,4.075543701171875,0.0022860574536025524,-0.003940679598599672,-0.003163569141179323
1782846172744548600,4.085548583984375,0.0017480988753959537,-0.0023845944087952375,0.0006122607155703008
1782846172754553600,4.0955537109375,0.004613660275936127,-0.0036133769899606705,0.0010538127971813083
1782846172764558600,4.10555859375,0.0026130937039852142,-0.004506867378950119,0.00009986854274757206
1782846172774563600,4.1155634765625,0.0021076255943626165,-0.003980626817792654,0.0015819176333025098
1782846172784568600,4.125568603515625,0.002425074577331543,-0.003353186184540391,-0.0036663739010691643
1782846172794573600,4.135573486328125,0.003816842334344983,-0.005377188324928284,-0.00034940673504024744
1782846172804578600,4.14557861328125,0.002055161399766803,-0.0029699571896344423,-0.0011704593198373914
1782846172814583600,4.15558349609375,0.0033569145016372204,-0.004051200579851866,-0.0007115966291166842
1782846172824588500,4.165588623046875,0.0015592807903885841,-0.0028972530271857977,-0.003733219113200903
1782846172834593500,4.175593505859375,0.002609365154057741,-0.0034522556234151125,-0.003555053612217307
1782846172844598500,4.1855986328125,0.0024466461036354303,-0.004059456288814545,-0.0005227785441093147
1782846172854603500,4.195603515625,0.003704190719872713,-0.0024596955627202988,-0.0020985708106309175
1782846172864608500,4.2056083984375,0.001677525113336742,-0.0006668555433861911,-0.0029766152147203684
1782846172874613500,4.215613525390625,0.002606702037155628,-0.003934287931770086,-0.004773183725774288
1782846172884618500,4.225618408203125,0.0006657902849838138,-0.005823001731187105,-0.0011137339752167463
1782846172894623500,4.23562353515625,0.0030956584960222244,-0.004811266902834177,-0.001847434788942337
1782846172904628500,4.24562841796875,-0.00043223105603829026,-0.004107659682631493,-0.0009347695158794522
1782846172914633500,4.255633544921875,0.0035457327030599117,-0.0022572954185307026,-0.0015904398169368505
1782846172924638500,4.265638427734375,0.0025718146935105324,-0.004173705819994211,-0.001216798322275281
1782846172934643500,4.2756435546875,0.00370099488645792,-0.004177434369921684,-0.0009776464430615306
1782846172944648400,4.2856484375,0.00017470336752012372,-0.004080761689692736,-0.0025632926262915134
1782846172954653400,4.2956533203125,0.0017928400775417686,-0.0046661244705319405,-0.0011078750248998404
1782846172964658400,4.305658447265625,0.005503688473254442,-0.0013110742438584566,-0.0015688681742176414
1782846172974663400,4.315663330078125,0.0010554107138887048,-0.0028154938481748104,-0.0029257487040013075
1782846172984668400,4.32566845703125,0.003394198836758733,-0.0018074874533340335,0.00011824435205198824
1782846172994673400,4.33567333984375,0.0020596887916326523,-0.0041039311327040195,-0.0007352987886406481
1782846173004678400,4.345678466796875,0.0041127195581793785,-0.003285009181126952,-0.002442651428282261
1782846173014683400,4.355683349609375,0.0031670311000198126,-0.004217914305627346,-0.0007307713967747986
1782846173024688400,4.3656884765625,0.0033127060160040855,-0.0044322991743683815,0.0002966761530842632
1782846173034693400,4.375693359375,0.004773982334882021,-0.0022357236593961716,0.0009416937828063965
1782846173044698400,4.385698486328125,0.001734516816213727,-0.0021582257468253374,-0.002121474128216505
1782846173054703400,4.395703369140625,0.001336107961833477,-0.003495665267109871,-0.00307675008662045
1782846173064708400,4.405708251953125,0.0034975295420736074,-0.001975266495719552,-0.0035172367934137583
1782846173074713300,4.41571337890625,0.0009078715811483562,-0.006138852797448635,0.000943025341257453
1782846173084718600,4.425718505859375,0.0022423816844820976,-0.00245117349550128,-0.0031033814884722233
1782846173094723600,4.4357236328125,0.001651692553423345,0.0005001416429877281,0.0003451456723269075
1782846173104728600,4.445728515625,0.004276770167052746,-0.0023579627741128206,0.0000066579027588886674
1782846173114733600,4.455733642578125,0.003522030543535948,-0.0033630398102104664,-0.002567020943388343
1782846173124738600,4.465738525390625,0.001719869440421462,-0.0032003207597881556,0.0013203952694311738
1782846173134743600,4.47574365234375,0.002049302449449897,-0.005468268413096666,-0.0013459615875035524
1782846173144748500,4.48574853515625,0.0018106831703335047,-0.002755306428298354,0.000474575295811519
1782846173154753500,4.49575341796875,0.0016732640797272325,-0.00449941074475646,0.0016349145444110036
1782846173164758500,4.505758544921875,0.0012836436508223414,-0.004136155359447002,-0.002356897573918104
1782846173174763500,4.515763427734375,0.0024253407027572393,-0.0029023129027336836,-0.000313986703986302
1782846173184768500,4.5257685546875,0.00515854312106967,-0.002192580606788397,-0.0015683355741202831
1782846173194773500,4.5357734375,0.0025933862198144197,-0.004508199170231819,0.0010058758780360222
1782846173204778500,4.545778564453125,-0.00017736652807798237,-0.004073305055499077,0.00007217166421469301
1782846173214783500,4.555783447265625,0.003719104453921318,-0.004068244714289904,-0.0005073322099633515
1782846173224788500,4.56578857421875,0.002627474721521139,-0.00367116741836071,-0.00304612354375422
1782846173234793500,4.57579345703125,0.002240517409518361,-0.0033065807074308395,0.000303334032651037
1782846173244798500,4.585798583984375,0.001038366463035345,-0.005547364708036184,0.0024317323695868254
1782846173254803500,4.595803466796875,0.0007459514308720827,-0.004447478801012039,0.0004242415598127991
1782846173264808400,4.605808349609375,0.0032690302468836308,-0.0015981629258021712,-0.0026493126060813665
1782846173274813400,4.6158134765625,0.0024833977222442627,-0.0031284152064472437,-0.002295911079272628
1782846173284818400,4.625818359375,0.0006649913266301155,-0.002960103563964367,-0.002597647253423929
1782846173294823400,4.635823486328125,0.005770271178334951,-0.0037116475868970156,0.0005984122981317341
1782846173304828400,4.645828369140625,0.002858903491869569,-0.001853293739259243,-0.0018125474452972412
1782846173314833400,4.65583349609375,0.0036780918017029762,-0.0034940673504024744,-0.0002980077115353197
1782846173324838400,4.66583837890625,0.0014149374328553677,-0.0037768951151520014,0.00010892329009948298
1782846173334843400,4.675843505859375,0.0035201662685722113,-0.0021025657188147306,-0.000598145998083055
1782846173344848400,4.685848388671875,0.0005555353709496558,-0.0038687740452587605,-0.002656503114849329
1782846173354853400,4.695853271484375,0.0014889733865857124,-0.004437359049916267,-0.0012506204657256603
1782846173364858400,4.7058583984375,0.0026162895374000072,-0.0024202808272093534,0.0022330605424940586
1782846173374863400,4.71586328125,0.0025302693247795105,-0.002966495230793953,-0.002160090021789074
1782846173384868400,4.725868408203125,0.002998719457536936,-0.0020793962758034468,0.0013771206140518188
1782846173394873300,4.735873291015625,0.0041369544342160225,-0.004247209057211876,-0.00039867521263659
1782846173404878300,4.74587841796875,0.0015784555580466986,-0.0019795275293290615,-0.0021084246691316366
1782846173414883300,4.75588330078125,0.002243180526420474,-0.001199221471324563,-0.0013022858183830976
1782846173424888300,4.765888427734375,0.003549461020156741,-0.003867975203320384,-0.00027324032271280885
1782846173434893300,4.775893310546875,0.0011688614031299949,-0.0031707596499472857,0.000898550555575639
1782846173444898300,4.785898193359375,0.0022799321450293064,-0.0025337315164506435,-0.00022450447431765497
1782846173454903300,4.7959033203125,0.002484196564182639,-0.002659432590007782,-0.0026929883752018213
1782846173464909300,4.805909423828125,-0.0001400822657160461,-0.005834719631820917,-0.0007241134881041944
1782846173474914300,4.815914306640625,0.002776611829176545,-0.0023134879302233458,0.00010359696898376569
1782846173484919300,4.825919189453125,0.002630936913192272,-0.002977414056658745,0.00043888893560506403
1782846173494924300,4.83592431640625,0.0019773971289396286,-0.004717257339507341,0.0015038870042189956
1782846173504929300,4.84592919921875,0.002398442942649126,-0.001645567244850099,-0.0008524778531864285
1782846173514934300,4.855934326171875,0.003061569994315505,-0.0034855452831834555,-0.0010309095960110426
1782846173524939300,4.865939208984375,0.003952397499233484,-0.001740375766530633,-0.0014434333425015211
1782846173534944300,4.8759443359375,0.0007651261985301971,-0.0019089538836851716,-0.0006314354832284153
1782846173544949200,4.88594921875,0.003055711043998599,-0.0036538569256663322,-0.003040797309949994
1782846173554954200,4.895954345703125,0.0021015002857893705,-0.002511360915377736,-0.0013731258222833276
1782846173564959200,4.905959228515625,0.0024921861477196217,-0.005247758701443672,0.001847967505455017
1782846173574964200,4.915964111328125,0.004339620936661959,-0.004238953348249197,0.0015483618481084704
1782846173584969200,4.92596923828125,0.0014397049089893699,-0.0012801815755665302,-0.00042051312630064785
1782846173594974200,4.93597412109375,0.002540122950449586,-0.0022711437195539474,0.0007089334540069103
1782846173604979200,4.945979248046875,0.0037497307639569044,-0.00009267800487577915,-0.002225337317213416
1782846173614984200,4.955984130859375,-0.0008870989549905062,-0.00430260319262743,0.0004111920716241002
1782846173624989200,4.9659892578125,0.00013875069271307439,-0.003418699838221073,-0.004029096569865942
1782846173634994200,4.975994140625,0.0026695525739341974,-0.005380650516599417,0.0018192053539678454
1782846173644999200,4.985999267578125,0.0005464806454256177,-0.0023611586075276136,-0.00029774141148664057
1782846173655004200,4.996004150390625,0.001537975505925715,-0.0035020567011088133,0.0004218447138555348
1782846173665009200,5.006009033203125,0.002251702593639493,-0.0028727517928928137,-0.0005856291390955448
1782846173675014100,5.01601416015625,0.0012801815755665302,-0.0011829761788249016,-0.001261273049749434
1782846173685019100,5.02601904296875,0.0018018947448581457,-0.0036418726667761803,-0.0025220136158168316
1782846173695024000,5.036024169921875,0.002428004052489996,0.0003701793903019279,-0.0009361011325381696
1782846173705029400,5.046029296875,0.0018469021888449788,-0.004977980628609657,0.00038296254933811724
1782846173715034400,5.056034423828125,0.002579271560534835,-0.003142263740301132,0.000800279900431633
1782846173725039400,5.066039306640625,0.00192226970102638,-0.002389121800661087,-0.0030123014003038406
1782846173735044400,5.07604443359375,0.002154231071472168,-0.0016144082183018327,-0.004173705819994211
1782846173745049300,5.08604931640625,0.0030269487760961056,-0.003495931625366211,-0.0019353191601112485
1782846173755054300,5.096054443359375,0.0029920614324510098,-0.0046480149030685425,-0.002675145398825407
1782846173765059300,5.106059326171875,0.004179564770311117,-0.0006183860241435468,-0.000565122754778713
1782846173775064300,5.116064208984375,0.0031707596499472857,-0.004001133143901825,-0.0008636631537228823
1782846173785069300,5.1260693359375,0.0031185615807771683,-0.0031641016248613596,-0.0012149340473115444
1782846173795074300,5.13607421875,0.0018636800814419985,-0.005754558369517326,-0.0014737932942807674
1782846173805079300,5.146079345703125,0.0033007217571139336,-0.004722849931567907,-0.003689010627567768
1782846173815084300,5.156084228515625,0.0029555761720985174,-0.0026082999538630247,-0.0022831279784440994
1782846173825089300,5.16608935546875,0.005255482159554958,-0.002808303339406848,-0.000862864195369184
1782846173835094300,5.17609423828125,0.0019302591681480408,-0.003245061729103327,-0.0015550197567790747
1782846173845099300,5.186099365234375,0.0021347899455577135,-0.003825897118076682,-0.0010436928132548928
1782846173855104300,5.196104248046875,0.0019800602458417416,-0.003847468877211213,-0.0024373249616473913
1782846173865109200,5.206109130859375,0.0007640608819201589,-0.0036690370179712772,-0.002170742489397526
1782846173875114200,5.2161142578125,0.0014413028256967664,-0.004275971557945013,-0.003754258155822754
1782846173885119200,5.226119140625,0.002965163439512253,-0.0010871023405343294,-0.0004316983977332711
1782846173895124200,5.236124267578125,0.003227218519896269,-0.001722532557323575,-0.0008096009842120111
1782846173905129200,5.246129150390625,0.004362790379673243,-0.0016295883106067777,-0.0009209210984408855
1782846173915134200,5.25613427734375,0.002826146548613906,-0.0031646343413740396,0.0011608719360083342
1782846173925139200,5.26613916015625,0.0014927018200978637,-0.002672215923666954,-0.0013795174891129136
1782846173935144200,5.276144287109375,0.0026101642288267612,-0.0037494644057005644,-0.001422128058038652
1782846173945149200,5.286149169921875,0.0026202842127531767,-0.0041521345265209675,-0.000024234765078290366
1782846173955154200,5.296154296875,0.002371811307966709,-0.0018423747969791293,-0.002008289797231555
1782846173965159200,5.3061591796875,0.0011033476330339909,-0.0018405106384307146,0.00048629322554916143
1782846173975164200,5.3161640625,0.0007555388147011399,-0.001859685406088829,-0.0036394759081304073
1782846173985169200,5.326169189453125,0.004012318328022957,-0.004110589157789946,-0.0007334345718845725
1782846173995174100,5.336174072265625,0.0029768813401460648,-0.004217914305627346,-0.00213532242923975
1782846174005179100,5.34617919921875,0.002416286151856184,-0.0034205641131848097,-0.0015550197567790747
1782846174015184100,5.35618408203125,0.00038296254933811724,-0.003977430984377861,0.0003414172388147563
1782846174025189000,5.366189208984375,0.0016908409306779504,-0.004656536970287561,0.00013528858835343271
1782846174035194000,5.376194091796875,0.0015121428295969963,-0.0038954056799411774,0.0005936186062172055
1782846174045199000,5.38619921875,0.0025779400020837784,-0.0037169738207012415,-0.000031425301131093875
1782846174055204000,5.3962041015625,0.0007523429812863469,-0.0026754115242511034,-0.0017393104499205947
1782846174065209000,5.406208984375,0.0009265137487091124,-0.0054243262857198715,-0.0005328985280357301
1782846174075214300,5.41621435546875,0.002953978255391121,-0.0034386736806482077,-0.0014032195322215557
1782846174085219300,5.42621923828125,0.0018311894964426756,-0.004268514458090067,-0.002238120650872588
1782846174095224300,5.436224365234375,0.002008023438975215,-0.003346528159454465,-0.0031523837242275476
1782846174105229300,5.446229248046875,0.0020692760590463877,-0.0005874933558516204,-0.002046905690804124
1782846174115234300,5.456234375,0.0029923277907073498,-0.004051999654620886,0.0008902947301976383
1782846174125239300,5.4662392578125,-0.000046072687837295234,-0.0032115059439092875,0.00006870955257909372
1782846174135244300,5.476244384765625,0.0032439965289086103,-0.001784850494004786,-0.0020418455824255943
1782846174145249300,5.486249267578125,0.0005438174703158438,-0.004054130055010319,-0.0022833943367004395
1782846174155254300,5.496254150390625,0.00185063062235713,-0.002722283359616995,-0.0020823257509618998
1782846174165259300,5.50625927734375,0.0017608820926398039,-0.00410419749096036,0.0001651159836910665
1782846174175264300,5.51626416015625,0.0010926949325948954,-0.0028703550342470407,-0.0027204190846532583
1782846174185269200,5.526269287109375,0.0005752427969127893,-0.001600826159119606,0.00008788431296125054
1782846174195274200,5.536274169921875,0.0009598032338544726,-0.004650145769119263,-0.0023302659392356873
1782846174205279200,5.546279296875,0.0028658276423811913,-0.0033688987605273724,-0.0033036512322723866
1782846174215284200,5.5562841796875,0.004193946253508329,-0.002764893928542733,-0.0006114617572166026
1782846174225289500,5.56628955078125,0.0035545211285352707,-0.001002680161036551,-0.0012343751732259989
1782846174235294500,5.57629443359375,-0.00008442220860160887,-0.0014655375853180885,-0.0004319647268857807
1782846174245299500,5.586299560546875,0.002718821167945862,-0.00398755120113492,-0.0004988100845366716
1782846174255304400,5.596304443359375,0.0018634138396009803,-0.002624545246362686,0.001275920425541699
1782846174265309400,5.606309326171875,0.0023936491925269365,-0.004337224178016186,0.00006391586794052273
1782846174275314400,5.616314453125,0.00010705907334340736,-0.0034083134960383177,-0.0002210423699580133
1782846174285319400,5.6263193359375,0.003513242118060589,-0.0028969866689294577,-0.00046818371629342437
1782846174295324400,5.636324462890625,0.0033787523861974478,-0.004757737275213003,-0.00046099317842163146
1782846174305329400,5.646329345703125,0.0026019082870334387,-0.003938548732548952,-0.0011952266795560718
1782846174315334400,5.65633447265625,0.0018570221727713943,-0.004507932811975479,-0.003710049670189619
1782846174325339400,5.66633935546875,0.003442934714257717,-0.005658152047544718,-0.0014330470003187656
1782846174335344400,5.676344482421875,0.004052532371133566,-0.0026325348298996687,-0.001207743538543582
1782846174345349400,5.686349365234375,0.0027715517207980156,-0.001434112200513482,-0.003718838095664978
1782846174355354400,5.696354248046875,0.0037286917213350534,-0.0021662150975316763,-0.00008229167724493891
1782846174365359400,5.706359375,0.00006631271389778703,-0.002238120650872588,-0.0006372944335453212
1782846174375364400,5.7163642578125,0.0033132387325167656,-0.005131112411618233,-0.001318264752626419
1782846174385370400,5.726370361328125,0.0026437200140208006,-0.0006567355012521148,0.001329982653260231
1782846174395375400,5.736375244140625,0.0011795139871537685,-0.002948652021586895,-0.0014226606581360102
1782846174405380400,5.74638037109375,0.001969407545402646,-0.001612277701497078,-0.00358754419721663
1782846174415385300,5.75638525390625,0.003294063964858651,-0.0021547635551542044,-0.0007014766451902688
1782846174425390300,5.766390380859375,0.0007193197961896658,-0.005209409166127443,0.0005826996639370918
1782846174435395300,5.776395263671875,0.0037526602391153574,-0.005675728898495436,-0.002584864152595401
1782846174445400300,5.786400390625,0.0035119105596095324,-0.002025600289925933,-0.0013052152935415506
1782846174455405800,5.79640576171875,0.0031214910559356213,-0.002400573343038559,-0.001907089608721435
1782846174465411000,5.8064111328125,0.00236222380772233,-0.003709516953676939,-0.0023547669406980276
1782846174475416000,5.816416015625,0.004519917070865631,-0.0007033408619463444,0.001284975209273398
1782846174485421000,5.826421142578125,0.0038725025951862335,-0.00236222380772233,-0.0009496832499280572
1782846174495426000,5.836426025390625,0.004758269991725683,-0.00469435378909111,0.0001347559446003288
1782846174505431000,5.84643115234375,0.004467452876269817,-0.003602191573008895,-0.0036434705834835768
1782846174515436000,5.85643603515625,0.0017297230660915375,-0.0040916805155575275,0.00004394215648062527
1782846174525441000,5.86644091796875,0.004233094397932291,-0.0062158177606761456,0.0014034858904778957
1782846174535446000,5.876446044921875,0.0029643645975738764,-0.004591555800288916,-0.0030298782512545586
1782846174545451000,5.886450927734375,0.003288471372798085,-0.005263205152004957,0.0012029499048367143
1782846174555456000,5.8964560546875,0.0029622339643538,-0.00580862071365118,-0.0012271846644580364
1782846174565461000,5.9064609375,0.001198688754811883,-0.0043683829717338085,-0.0018780612153932452
1782846174575466000,5.916466064453125,0.002112152986228466,-0.0008269115351140499,0.0002990729990415275
1782846174585471000,5.926470947265625,0.0008237157016992569,-0.004279966000467539,-0.00030067088664509356
1782846174595476000,5.93647607421875,0.004279966000467539,-0.0032029838766902685,-0.0013195963110774755
1782846174605481000,5.94648095703125,0.0033867419697344303,-0.003949734382331371,0.0013848437229171395
1782846174615486000,5.95648583984375,0.0025574336759746075,-0.00330311874859035,-0.001469532260671258
1782846174625491000,5.966490966796875,0.0007217166712507606,-0.003186205867677927,-0.0033997914288192987
1782846174635496000,5.976495849609375,0.0029638318810611963,-0.0030778152868151665,-0.0009427590412087739
1782846174645501000,5.9865009765625,0.0022274679504334927,-0.0046908920630812645,-0.002301770029589534
1782846174655506000,5.996505859375,0.0025867284275591373,-0.0014141384745016694,-0.0030690268613398075
1782846174665511000,6.006510986328125,0.0010703244479373097,-0.0040826257318258286,-0.0006506102508865297
1782846174675516000,6.016515869140625,0.004987301770597696,-0.0030027141328901052,-0.000811997801065445
1782846174685521000,6.02652099609375,0.003194994293153286,-0.0016447682864964008,-0.0003150519623886794
1782846174695526000,6.03652587890625,0.002921754028648138,-0.0032748891972005367,0.005565740168094635
1782846174705531000,6.04653076171875,0.002404301892966032,-0.0027025758754462004,-0.0013409015955403447
1782846174715536000,6.056535888671875,0.0013012205017730594,-0.0034735610242933035,0.0002466087171342224
1782846174725540900,6.066540771484375,0.0015965650090947747,-0.00686216726899147,-0.0012069445801898837
1782846174735545900,6.0765458984375,0.003923901356756687,-0.003430684097111225,0.00007723167072981596
1782846174745550800,6.08655078125,0.002234392100945115,-0.0006032059900462627,-0.0020967067684978247
1782846174755555800,6.096555908203125,0.001996039180085063,-0.004283960908651352,-0.00027750138542614877
1782846174765560800,6.106560791015625,0.0032288164366036654,-0.0031784826423972845,-0.002922020386904478
1782846174775565800,6.11656591796875,0.0008732505375519395,-0.004733502399176359,-0.00014940333494450897
1782846174785570800,6.12657080078125,-0.0001994707708945498,-0.0016732640797272325,0.0028671592008322477
1782846174795576000,6.136576171875,0.0017534252256155014,-0.003078614128753543,-0.003085005795583129
1782846174805581000,6.1465810546875,0.0013467605458572507,-0.003013899317011237,-0.00027031084755435586
1782846174815586000,6.1565859375,0.002037850907072425,-0.003236806020140648,-0.0010277138790115714
1782846174825591000,6.166591064453125,0.0023883229587227106,-0.0018002968281507492,-0.003147589974105358
1782846174835596000,6.176595947265625,0.0019267969764769077,-0.0036815537605434656,-0.001008539111353457
1782846174845601000,6.18660107421875,0.003291134489700198,-0.003483414649963379,-0.0023494407068938017
1782846174855606000,6.19660595703125,0.004267183132469654,-0.002189651131629944,-0.0014892396284267306
1782846174865611000,6.206611083984375,0.0015337144723162055,-0.0038626487366855145,-0.001347293145954609
1782846174875616000,6.216615966796875,0.0012159993639215827,-0.002867691917344928,-0.0007784419576637447
1782846174885621000,6.22662109375,0.0019006980583071709,-0.005428587552160025,-0.00180855265352875
1782846174895626000,6.2366259765625,0.0014745922526344657,-0.0062882560305297375,-0.0010644654976204038
1782846174905631000,6.246630859375,0.0006780407857149839,-0.0038424087688326836,0.0020788635592907667
1782846174915636000,6.256635986328125,-0.00013981595111545175,-0.003353186184540391,-0.0011821772204712033
1782846174925641000,6.266640869140625,0.0006865629111416638,-0.0031582426745444536,-0.0021979068405926228
1782846174935646000,6.27664599609375,0.0044171190820634365,-0.004324707202613354,-0.0011829761788249016
1782846174945651000,6.28665087890625,0.0021377194207161665,-0.00242161238566041,0.0005310343112796545
1782846174955656000,6.296656005859375,0.0024311996530741453,-0.0029201561119407415,-0.00032410668791271746
1782846174965661000,6.306660888671875,0.001784850494004786,-0.002388855442404747,0.00013741910515818745
1782846174975666000,6.316666015625,0.001478587044402957,-0.0017504957504570484,0.0002109223569277674
1782846174985671200,6.326671142578125,0.0020213392563164234,-0.003483947366476059,0.000901480030734092
1782846174995676200,6.33667626953125,0.001996305538341403,-0.004297010600566864,-0.0005667206714861095
1782846175005681200,6.34668115234375,0.0012689962750300765,-0.002028796123340726,-0.0017933726776391268
1782846175015686100,6.35668603515625,0.002293514320626855,-0.004767591133713722,-0.0011978897964581847
1782846175025691100,6.366691162109375,0.0033633061684668064,-0.0034642398823052645,0.00011930961773032323
1782846175035696000,6.376696044921875,0.00007403588097076863,-0.0017097494564950466,-0.004436027258634567
1782846175045701000,6.386701171875,0.002073537092655897,-0.004722317215055227,0.00230816169641912
1782846175055706000,6.3967060546875,0.004189684987068176,-0.004192614462226629,-0.0016223976854234934
1782846175065711000,6.406711181640625,0.0014474280178546906,-0.0036242958158254623,-0.0012650014832615852
1782846175075716000,6.416716064453125,0.0009326389990746975,-0.0027888622134923935,-0.004147873260080814
1782846175085721000,6.42672119140625,0.0004652542411349714,-0.002561694709584117,-0.0015315839555114508
1782846175095726000,6.43672607421875,0.004430434666574001,-0.004319647327065468,0.0002596582053229213
1782846175105731000,6.44673095703125,0.0026666230987757444,-0.0051742554642260075,-0.000916393706575036
1782846175115736000,6.456736083984375,0.002049036091193557,-0.002514290390536189,0.0005246427026577294
1782846175125741000,6.466740966796875,0.0012261193478479981,-0.0036487970501184464,0.0008684568456374109
1782846175135746000,6.47674609375,0.0029316076543182135,-0.001695900922641158,-0.000294545607175678
1782846175145751000,6.4867509765625,0.0017086841398850083,-0.004485296085476875,-0.00004846953015658073
1782846175155756000,6.496756103515625,0.0007198524544946849,-0.003254382871091366,-0.0014258564915508032
1782846175165761000,6.506760986328125,0.002540389308705926,-0.0029321403708308935,-0.0015968313673511147
1782846175175766000,6.51676611328125,0.0051713259890675545,-0.0030274814926087856,-0.0037832865491509438
1782846175185771000,6.52677099609375,0.0035020567011088133,-0.0012828446924686432,-0.003649862250313163
1782846175195776000,6.53677587890625,0.004443750716745853,-0.003428287338465452,0.0005416869535110891
1782846175205781000,6.546781005859375,0.0035055188927799463,-0.0033995250705629587,-0.0006735134520567954
1782846175215786000,6.556785888671875,0.005691175349056721,-0.002272475278005004,-0.0024114924017339945
1782846175225791000,6.566791015625,-0.00028868665685877204,-0.0041121868416666985,-0.001967277145013213
1782846175235796000,6.5767958984375,0.0025859293527901173,-0.003518834710121155,-0.0002463423879817128
1782846175245801000,6.586801025390625,0.001627457677386701,-0.0012333098566159606,0.0007054713787510991
1782846175255806000,6.596805908203125,0.0015923039754852653,-0.003850131994113326,-0.0017670074012130499
1782846175265811000,6.60681103515625,0.0028093685396015644,-0.0014271880500018597,0.0014378406340256333
1782846175275816000,6.61681591796875,0.0011853729374706745,-0.0030740867368876934,0.00016591492749284953
1782846175285821000,6.626821044921875,0.00381444557569921,-0.004552141297608614,0.0004950816510245204
1782846175295826000,6.636825927734375,0.0032290827948600054,-0.004191815387457609,-0.004476507660001516
1782846175305831000,6.646830810546875,0.00466505903750658,-0.0018311894964426756,-0.001817873795516789
1782846175315836000,6.6568359375,0.0025662221014499664,-0.0037406759802252054,-0.0010639328975230455
1782846175325841000,6.6668408203125,0.006641124840825796,-0.003614708548411727,-0.002383795566856861
1782846175335846000,6.676845947265625,0.001979261403903365,-0.003179814200848341,-0.0009675264009274542
1782846175345851000,6.686850830078125,0.001541171339340508,-0.0036820864770561457,-0.0013148026773706079
1782846175355856000,6.69685595703125,0.0037587855476886034,-0.004033357370644808,0.0015579492319375277
1782846175365860900,6.70686083984375,-0.00043356261448934674,-0.003768372815102339,-0.001439971150830388
1782846175375865900,6.716865966796875,0.0006511429091915488,-0.00192200334277004,-0.0010522148804739118
1782846175385870800,6.726870849609375,0.0032783513888716698,-0.0021281319204717875,-0.0024591628462076187
1782846175395875800,6.736875732421875,0.0031989889685064554,-0.004355333745479584,-0.0007494135061278939
1782846175405880800,6.746880859375,0.0005747101386077702,-0.0016562198288738728,0.00005699164830730297
1782846175415885800,6.7568857421875,0.0034935346338897943,-0.004728176165372133,0.0014176006661728024
1782846175425890800,6.766890869140625,0.002975283656269312,-0.002295911079272628,0.002627208363264799
1782846175435895800,6.776895751953125,0.002779274946078658,-0.0023734092246741056,-0.0016940367640927434
1782846175445900800,6.78690087890625,0.0019166769925504923,-0.005821137689054012,-0.00036458674003370106
1782846175455905800,6.79690576171875,0.004593420308083296,-0.0035151063930243254,-0.0034586472902446985
1782846175465910800,6.806910888671875,0.004620051942765713,-0.002882871776819229,-0.0006612628931179643
1782846175475916000,6.816916015625,0.0025302693247795105,-0.0022032330743968487,-0.0011667308863252401
1782846175485921000,6.826921142578125,0.001978995045647025,-0.0017243968322873116,-0.0014900385867804289
1782846175495926000,6.836926025390625,0.0015443670563399792,-0.0015962987672537565,0.00005352953667170368
1782846175505931800,6.846931884765625,0.002793389605358243,-0.00515907583758235,-0.0004948153509758413
1782846175515936800,6.856936767578125,0.004559331573545933,-0.003882622579112649,-0.003144926857203245
1782846175525941800,6.866941650390625,0.0020756677258759737,-0.0025691515766084194,0.00004793690095539205
1782846175535946000,6.876946044921875,0.00418515782803297,-0.0018647453980520368,-0.003963849041610956
1782846175545951700,6.88695166015625,0.0015214639715850353,-0.0054419031366705894,-0.003430950455367565
1782846175555956700,6.896956787109375,0.002698314841836691,-0.003308178624138236,-0.0033182986080646515
1782846175565961700,6.906961669921875,0.0018141453620046377,-0.004584631882607937,-0.0032522522378712893
1782846175575966700,6.916966796875,0.0026176210958510637,-0.0017414409667253494,-0.0012900352012366056
1782846175585971700,6.9269716796875,0.0038546593859791756,-0.0029843382071703672,-0.0006431533838622272
1782846175595976700,6.936976806640625,0.0024311996530741453,-0.0030274814926087856,-0.003456516657024622
1782846175605982000,6.94698193359375,0.002674346324056387,-0.0008351673022843897,-0.0005856291390955448
1782846175615987000,6.956987060546875,0.002404301892966032,-0.0006889597862027586,-0.0012697952333837748
1782846175625992000,6.966991943359375,0.001958488719537854,-0.0025747441686689854,-0.0028698223177343607
1782846175635997000,6.976996826171875,0.0017457021167501807,-0.002478337613865733,-0.0020663465838879347
1782846175646002000,6.987001953125,0.0019347865600138903,-0.0009760485263541341,-0.0007310376968234777
1782846175656007000,6.9970068359375,0.0025363946333527565,-0.0020391824655234814,0.00040799626731313765
1782846175666012000,7.007011962890625,0.001734516816213727,-0.0028061727061867714,-0.002557699801400304
1782846175676017000,7.017016845703125,0.0007574030314572155,-0.003698331769555807,-0.0009872338268905878
1782846175686022000,7.02702197265625,0.0020562265999615192,-0.0025893915444612503,-0.0002790992730297148
1782846175696027000,7.03702685546875,0.0009811085183173418,-0.0023877902422100306,0.0005986785981804132
1782846175706031900,7.047031982421875,0.0017145430902019143,-0.0014817827614024282,0.0003022687742486596
1782846175716036900,7.057036865234375,0.003108175238594413,-0.004381965380162001,0.0008303736103698611
1782846175726041900,7.067041748046875,0.0006234460161067545,-0.0036341496743261814,-0.0010098706698045135
1782846175736046800,7.077046875,0.002388589084148407,-0.002763828495517373,-0.0015962987672537565
1782846175746051800,7.0870517578125,0.0026794064324349165,-0.0038836877793073654,0.0013992248568683863
1782846175756056800,7.097056884765625,0.0041065942496061325,-0.0016711335629224777,-0.0007488809060305357
1782846175766061800,7.107061767578125,0.0026375947054475546,-0.0025867284275591373,-0.003448793664574623
1782846175776066800,7.11706689453125,0.004249872639775276,-0.003780623432248831,-0.0019651465117931366
1782846175786071800,7.12707177734375,0.0009502158500254154,-0.003370763035491109,-0.0009779128013178706
1782846175796076800,7.137076904296875,0.003734018187969923,-0.0033454629592597485,-0.001401089015416801
1782846175806081800,7.147081787109375,0.0008993495139293373,-0.0038567897863686085,0.0002814961189869791
1782846175816086800,7.157086669921875,0.0011643340112641454,-0.004117513541132212,0.0013281183782964945
1782846175826091800,7.167091796875,0.0025574336759746075,-0.005538842175155878,0.002305232221260667
1782846175836096800,7.1770966796875,0.0037920749746263027,-0.00680171325802803,0.001505751279182732
1782846175846101800,7.187101806640625,0.0011462245602160692,-0.003329750383272767,-0.002662362065166235
1782846175856106800,7.197106689453125,0.002832005498930812,-0.0018540926976129413,-0.003716174978762865
1782846175866111700,7.20711181640625,-0.0015744607662782073,-0.004793423693627119,-0.001814411603845656
1782846175876116700,7.21711669921875,0.0016951019642874599,-0.004504204262048006,-0.0035691685043275356
1782846175886121700,7.227121826171875,0.0018048242200165987,-0.0010719223646447062,-0.0034879420418292284
1782846175896126700,7.237126708984375,0.000054861116950633004,-0.00472577940672636,-0.0032474587205797434
1782846175906131700,7.247131591796875,0.002767024328932166,-0.002496979897841811,-0.00010226538870483637
1782846175916136700,7.25713671875,0.0024314660113304853,-0.0018080200534313917,-0.0005302353529259562
1782846175926141700,7.2671416015625,0.001413339632563293,-0.0036719664931297302,-0.002861832967028022
1782846175936146700,7.277146728515625,0.0031494542490690947,-0.0026224146131426096,0.0013741911388933659
1782846175946151700,7.287151611328125,0.002112152986228466,-0.004313788376748562,0.001270594191737473
1782846175956157000,7.297156982421875,0.0009321063989773393,-0.004381432663649321,0.0012381036067381501
1782846175966162000,7.307161865234375,0.001680987305007875,-0.002900981344282627,-0.00011078749957960099
1782846175976167000,7.3171669921875,0.003977697342634201,-0.001782453735359013,-0.002522546099498868
1782846175986172000,7.327171875,0.0011339739430695772,-0.0013132047606632113,0.00011717908637365326
1782846175996177000,7.337177001953125,0.003653058083727956,-0.0029196233954280615,-0.0018887137994170189
1782846176006182000,7.347181884765625,0.0014285196084529161,-0.002245843643322587,-0.001216265605762601
1782846176016187000,7.357186767578125,0.002092445734888315,-0.0051598744466900826,-0.00040027310024015605
1782846176026192000,7.36719189453125,0.001805889536626637,-0.0030000510159879923,-0.0008082693675532937
1782846176036196900,7.37719677734375,0.0021110877860337496,-0.0017275925492867827,-0.0022027005907148123
1782846176046201900,7.387201904296875,0.0006612628931179643,-0.002912965603172779,-0.004345213528722525
1782846176056206800,7.397206787109375,0.0018500980222597718,-0.00039308256236836314,-0.0004295678809285164
1782846176066211800,7.4072119140625,0.0017686053179204464,-0.0031217574141919613,0.001041562296450138
1782846176076216800,7.417216796875,0.0037055222783237696,-0.004733502399176359,-0.002269812161102891
1782846176086221800,7.427221923828125,0.0009355684742331505,-0.004562261048704386,-0.0007480819476768374
1782846176096226800,7.437226806640625,0.0027632960118353367,-0.0033779535442590714,0.00037736992817372084
1782846176106231800,7.447231689453125,0.0032024511601775885,-0.0024141555186361074,-0.001163268811069429
1782846176116236800,7.45723681640625,0.0014799186028540134,-0.0027861990965902805,-0.000258859246969223
1782846176126242000,7.467241943359375,0.0013920343481004238,-0.003817375050857663,-0.0012330436147749424
1782846176136247000,7.4772470703125,0.0014732606941834092,-0.0035744947381317616,-0.00023702133330516517
1782846176146252000,7.487251953125,0.0024000408593565226,0.0026581010315567255,-0.001329716295003891
1782846176156257000,7.497257080078125,0.001472728094086051,-0.004802212119102478,0.0010109359864145517
1782846176166262000,7.507261962890625,0.0011416971683502197,-0.0024623586796224117,-0.0006034722900949419
1782846176176267000,7.51726708984375,0.004220843780785799,-0.004542820155620575,-0.00013848437811248004
1782846176186272000,7.52727197265625,0.002151301596313715,-0.001945439144037664,0.000017310547264060006
1782846176196277000,7.537277099609375,0.0025515747256577015,-0.005152950529009104,-0.0011558119440451264
1782846176206282000,7.547281982421875,0.0018439727136865258,-0.005225388333201408,-0.0008237157016992569
1782846176216287000,7.557286865234375,0.001243962557055056,-0.0027768779546022415,-0.00020453077740967274
1782846176226292000,7.5672919921875,0.00458756135776639,-0.002281263703480363,-0.0027987160719931126
1782846176236297000,7.577296875,0.002930542454123497,-0.00152306177187711,-0.003436276689171791
1782846176246302000,7.587302001953125,0.0008042746339924634,-0.00192200334277004,0.00024980452144518495
1782846176256307000,7.597306884765625,0.0036788906436413527,-0.0029827402904629707,-0.0012807141756638885
1782846176266312000,7.60731201171875,0.0016266588354483247,-0.005568137392401695,0.0008692557457834482
1782846176276317000,7.61731689453125,0.002103897277265787,-0.0028655612841248512,-0.0015795208746567369
1782846176286322000,7.627322021484375,0.0021260015200823545,-0.003037867834791541,0.001439971150830388
1782846176296327000,7.637326904296875,0.000565122754778713,-0.0016863135388121009,-0.001008272753097117
1782846176306332000,7.647331787109375,0.003896470880135894,-0.0019600866362452507,-0.004825647920370102
1782846176316337000,7.6573369140625,0.0008831042214296758,-0.0036242958158254623,-0.002409894485026598
1782846176326342000,7.667341796875,0.00038482676609419286,-0.003225088119506836,-0.0006087986403144896
1782846176336347000,7.677346923828125,-0.00014061490946915,-0.005382248666137457,0.0015211976133286953
1782846176346351900,7.687351806640625,0.0023148194886744022,-0.003233610186725855,-0.00007137271313695237
1782846176356356900,7.69735693359375,0.0010841728653758764,-0.0027174896094948053,-0.0003707120195031166
1782846176366361900,7.70736181640625,0.00187992537394166,-0.00407383730635047,0.00049082055920735
1782846176376366800,7.717366943359375,0.002525741932913661,-0.0041489386931061745,-0.0023670175578445196
1782846176386371800,7.727371826171875,0.0010900318156927824,-0.0009677927591837943,-0.00037523938226513565
1782846176396376800,7.737376953125,0.004094077739864588,-0.002004561247304082,0.00038056570338085294
1782846176406381800,7.7473818359375,0.0005171858938410878,-0.002630670554935932,0.0017832526937127113
1782846176416386800,7.75738671875,0.0016421051695942879,-0.0018570221727713943,0.0007366303470917046
1782846176426391800,7.767391845703125,0.0012245214311406016,-0.004775047767907381,0.00016591492749284953
1782846176436396800,7.777396728515625,0.0021497036796063185,-0.0022301310673356056,-0.001478320686146617
1782846176446401800,7.78740185546875,0.0036615801509469748,-0.002320145955309272,-0.0004394215648062527
1782846176456407000,7.797406982421875,0.0007350324303843081,-0.001350222621113062,-0.00001944107498275116
1782846176466412000,7.807412109375,0.0013590110465884209,-0.0017861821688711643,-0.0017116136150434613
1782846176476417000,7.8174169921875,0.0024972460232675076,-0.003492469433695078,0.0013464941876009107
1782846176486422000,7.827422119140625,0.0023289343807846308,-0.002585396869108081,0.0014759238110855222
1782846176496427000,7.837427001953125,0.0016556872287765145,-0.0036312201991677284,0.0008516788948327303
1782846176506432000,7.847431884765625,0.003718571737408638,-0.0009049421059899032,0.0013688647886738181
1782846176516437000,7.85743701171875,0.0007925567333586514,-0.0035214978270232677,0.00001304948909819359
1782846176526442000,7.86744189453125,0.0022234732750803232,-0.005621133837848902,-0.005052016582340002
1782846176536447000,7.877447021484375,0.0016231966437771916,-0.0028130970895290375,-0.0022860574536025524
1782846176546452000,7.887451904296875,0.0013161342358216643,-0.0009531453251838684,-0.0013962953817099333
1782846176556457000,7.89745703125,0.002561428351327777,-0.001942776027135551,-0.0006700513185933232
1782846176566462000,7.9074619140625,0.004749747924506664,-0.0026168220210820436,-0.004580903332680464
1782846176576467000,7.917467041015625,0.002755040070042014,-0.0018884475575760007,-0.0026224146131426096
1782846176586472000,7.927471923828125,-0.0004724447790067643,-0.006914897821843624,0.0017989652696996927
1782846176596477000,7.937476806640625,0.000958205375354737,-0.0037057886365801096,-0.0010966897243633866
1782846176606482000,7.94748193359375,0.00253479671664536,-0.002484196564182639,-0.0007829693495295942
1782846176616487000,7.95748681640625,0.0016413062112405896,-0.0007337008719332516,0.00011424961121520028
1782846176626492200,7.9674921875,0.0029790119733661413,-0.0016860472969710827,-0.0014122743159532547
1782846176636497200,7.9774970703125,0.003147589974105358,-0.004160390235483646,-0.0012982910266146064
1782846176646502100,7.987502197265625,0.005132177844643593,-0.0006601976347155869,-0.0034115093294531107
1782846176656507100,7.997507080078125,0.0029590383637696505,-0.0037004624027758837,-0.0009544769418425858
1782846176666512100,8.00751220703125,0.0005840312223881483,-0.0026551715563982725,-0.00013741910515818745
1782846176676517400,8.017517333984374,0.0036104475148022175,-0.0018042916199192405,0.00042051312630064785
1782846176686522400,8.0275224609375,0.00007376955909421667,-0.004531368613243103,-0.000179230744834058
1782846176696527400,8.03752734375,0.0012607404496520758,-0.0036456012167036533,0.00013022858183830976
1782846176706532400,8.047532470703125,0.0010551444720476866,-0.006768424063920975,-0.0002596582053229213
1782846176716537300,8.057537353515626,0.00273133791051805,-0.0016311861108988523,-0.003555852686986327
1782846176726542300,8.067542236328125,0.0005808354471810162,-0.003469566348940134,0.0001656486128922552
1782846176736547300,8.07754736328125,0.0020442423410713673,-0.002304699504747987,-0.00039974047103896737
1782846176746552300,8.08755224609375,0.003230147995054722,-0.004876248072832823,-0.00256435782648623
1782846176756557300,8.097557373046875,0.0016109461430460215,-0.004265052266418934,-0.00003302319601061754
1782846176766562300,8.107562255859374,0.003227218519896269,-0.001511876587755978,-0.002241050126031041
1782846176776567300,8.1175673828125,0.0026932547334581614,-0.0027835359796881676,0.0012679309584200382
1782846176786572300,8.127572265625,0.0022272015921771526,-0.0029963224660605192,-0.00013768543431069702
1782846176796577300,8.137577392578125,0.0008333030855283141,-0.0047260457649827,-0.0011467571603134274
1782846176806582300,8.147582275390626,0.0010689928894862533,-0.003296993440017104,-0.0018285263795405626
1782846176816587300,8.157587158203125,0.002341983839869499,-0.002998985582962632,0.0003616572648752481
1782846176826592300,8.16759228515625,0.00173771264962852,-0.0024530377704650164,-0.0012159993639215827
1782846176836597200,8.17759716796875,0.002552906284108758,-0.0010498181218281388,0.003442934714257717
1782846176846602200,8.187602294921875,0.004589691758155823,-0.0014032195322215557,-0.0009837717516347766
1782846176856607200,8.197607177734374,-0.000368847802747041,-0.0043808999471366405,-0.000529702752828598
1782846176866612200,8.2076123046875,0.0018442390719428658,-0.004477838985621929,-0.0036125779151916504
1782846176876618200,8.2176181640625,0.000669252360239625,-0.0038538603112101555,0.00552339619025588
1782846176886622200,8.227622314453125,0.0008005462004803121,-0.0026847326662391424,-0.0012085424968972802
1782846176896627200,8.237627197265626,0.0016735304379835725,-0.0011406318517401814,-0.003626160090789199
1782846176906633200,8.24763330078125,0.0033981935121119022,-0.003909520339220762,0.0004801679460797459
1782846176916638200,8.25763818359375,0.003052515210583806,-0.0032088428270071745,0.0007952199084684253
1782846176926643200,8.267643310546875,0.002433596644550562,-0.003480485174804926,-0.0008676578872837126
1782846176936648200,8.277648193359376,0.0016460998449474573,-0.0019201391842216253,0.00005326322207110934
1782846176946653200,8.287653076171875,0.003094060579314828,-0.002011485630646348,-0.0015225291717797518
1782846176956658200,8.297658203125,0.0015954998089000583,-0.001745968358591199,-0.0008828379213809967
1782846176966663200,8.3076630859375,0.0019656792283058167,-0.0018461032304912806,0.0004982774262316525
1782846176976668200,8.317668212890625,0.003102049930021167,-0.004618986509740353,0.00038828887045383453
1782846176986673200,8.327673095703124,0.003501790575683117,-0.0030887341126799583,-0.0011448930017650127
1782846176996678100,8.33767822265625,0.0035300198942422867,-0.002115881536155939,0.0007238471880555153
1782846177006683100,8.34768310546875,-0.00014674017438665032,-0.0036719664931297302,-0.0015238607302308083
1782846177016688000,8.357688232421875,0.001294029993005097,-0.00296276668086648,0.00018136126163881272
1782846177026693000,8.367693115234376,-0.00032863407977856696,-0.0007582019316032529,0.0006199838826432824
1782846177036698000,8.377697998046875,0.0029859361238777637,-0.003817108692601323,-0.000517718493938446
1782846177046703000,8.387703125,0.0034991272259503603,-0.0035031221341341734,-0.001984853995963931
1782846177056708000,8.3977080078125,0.0016343819443136454,-0.0006631271098740399,0.0011060107499361038
1782846177066713000,8.407713134765626,0.0019587550777941942,-0.0025129588320851326,-0.003745203372091055
1782846177076718000,8.417718017578125,0.0018213358707726002,-0.0012141350889578462,0.001722798915579915
1782846177086723000,8.42772314453125,0.0011041465913876891,-0.0030919299460947514,-0.0010245180455967784
1782846177096728000,8.43772802734375,0.0017270599491894245,-0.0025571673177182674,-0.0025102957151830196
1782846177106733000,8.447733154296875,0.000877511571161449,-0.003171292133629322,-0.001588841900229454
1782846177116738000,8.457738037109374,-0.00037470675306394696,-0.0032754219137132168,-0.0008948221220634878
1782846177126743000,8.467742919921875,0.002472478663548827,-0.002912166528403759,-0.0007749798824079335
1782846177136748000,8.477748046875,0.0020698087755590677,-0.004333229269832373,-0.001252750982530415
1782846177146753000,8.4877529296875,0.001948368619196117,-0.004430967383086681,0.00039547940832562745
1782846177156758000,8.497758056640626,0.002555036684498191,-0.0041364217177033424,-0.0013483584625646472
1782846177166763000,8.507762939453125,-0.00015579492901451886,-0.0023286680225282907,0.00007190534961409867
1782846177176768000,8.51776806640625,0.0026072347536683083,-0.0034072482958436012,-0.0006926882197149098
1782846177186773000,8.52777294921875,0.0024402544368058443,-0.0044410875998437405,0.000014647385796706658
1782846177196778000,8.537778076171875,0.001954760169610381,-0.0034993935842067003,-0.0008064051507972181
1782846177206783000,8.547782958984374,0.0035329493694007397,-0.00020053602929692715,-0.00008468852320220321
1782846177216788000,8.5577880859375,0.003632551757618785,-0.002822950715199113,-0.0013430321123450994
1782846177226793000,8.56779296875,0.0018959043081849813,-0.0016522251535207033,-0.0015472965314984322
1782846177236798000,8.5777978515625,0.0016439693281427026,-0.0023555660154670477,-0.001418665866367519
1782846177246803000,8.587802978515626,0.0010064085945487022,-0.006060821935534477,0.0004756405542138964
1782846177256808000,8.597807861328125,0.0036796897184103727,-0.0016703346045687795,0.0005496764206327498
1782846177266813000,8.60781298828125,-0.0011459582019597292,-0.003885818412527442,-0.0024535702541470528
1782846177276818000,8.61781787109375,-0.00004447478931979276,0.1657298505306244,0.053640060126781464
1782846177286823000,8.627822998046875,0.011376758106052876,-0.048462606966495514,-0.01058926060795784
1782846177296828000,8.637827880859374,-0.002415487077087164,0.035287149250507355,-0.0008684568456374109
1782846177306833200,8.647833251953125,0.0034826158080250025,-0.03615853562951088,-0.010092847980558872
1782846177316838100,8.657838134765624,0.003062102710828185,0.00926274061203003,-0.0032623722217977047
1782846177326843100,8.667843017578125,-0.00037976677413098514,-0.026334134861826897,-0.005147091578692198
1782846177336848400,8.677848388671874,0.003515905234962702,0.0031933963764458895,0.0006255765329115093
